File: MATLAB/Examples/example_spectra/palygorskite.msa
#FORMAT      : EMSA/MAS SPECTRAL DATA FILE
#VERSION     : 1.0
#TITLE       : MineralStandards | Plg | Area 2 | Selected Area 1
#DATE        : 09-Jul-2024
#TIME        : 12:35
#OWNER       : EDAX APEX /ApexData
#NPOINTS     : 4096
#NCOLUMNS    : 1
#XUNITS      : Energy (EV)
#YUNITS      : Intensity
#DATATYPE    : XY
#XPERCHAN    : 10.000
#OFFSET      : 0.0
#CHOFFSET    : 0.0
#SIGNALTYPE  : EDS
#XLABEL      : X-RAY Energy
#YLABEL      : X-RAY Intensity
#BEAMKV   -kV: 15.0
#LIVETIME  -s: 10.0
#REALTIME  -s: 0.0
#ELEVANGLE-dg: 35.0
#AZIMANGLE-dg: 0.0
#TBEWIND  -cm: 0.000000
#TDEADLYR -cm: 0.030
#TACTYLR  -cm: 0.1
#COMMENT     : Converted by EDAX.APEX.V2.0 February 2020
##FILENAME       : \\naotvcsocc.coeit.osu.edu\CEMAS_Instrument\weber.1158\PhD\20240709\MineralStandards\Plg\Area 2\Selected Area 1_1.spc
##AmpTime (usec) : 0.96
##FPGA Version   : 0
##RESO (MnKa)    : 126.2
##EDAX Detector  : Octane Elect Super
##Analyzer Type  : DPP4
##Tilt Angle     : 0.0
##TakeOff Angle  : 36.9
##Elements       : 8,12,13,14
#SPECTRUM    : Spectral Data Starts Here
0.00,        0.0
30.00,        0.0
60.00,        6.0
90.00,        232.0
120.00,        777.0
150.00,        949.0
180.00,        1661.0
210.00,        6017.0
240.00,        32292.0
270.00,        56456.0
300.00,        18910.0
330.00,        2304.0
360.00,        1408.0
390.00,        1638.0
420.00,        2320.0
450.00,        6170.0
480.00,        26178.0
510.00,        67410.0
540.00,        50515.0
570.00,        9746.0
600.00,        1829.0
630.00,        1478.0
660.00,        1567.0
690.00,        1656.0
720.00,        1744.0
750.00,        2175.0
780.00,        2445.0
810.00,        1948.0
840.00,        1740.0
870.00,        1558.0
900.00,        1531.0
930.00,        1563.0
960.00,        1648.0
990.00,        1938.0
1020.00,        2331.0
1050.00,        2201.0
1080.00,        1890.0
1110.00,        1659.0
1140.00,        1767.0
1170.00,        2148.0
1200.00,        4835.0
1230.00,        12258.0
1260.00,        16760.0
1290.00,        9220.0
1320.00,        3324.0
1350.00,        1939.0
1380.00,        1834.0
1410.00,        2620.0
1440.00,        6899.0
1470.00,        15821.0
1500.00,        17301.0
1530.00,        9137.0
1560.00,        3532.0
1590.00,        2188.0
1620.00,        2137.0
1650.00,        3935.0
1680.00,        15136.0
1710.00,        47400.0
1740.00,        74874.0
1770.00,        53644.0
1800.00,        19361.0
1830.00,        6601.0
1860.00,        3556.0
1890.00,        2058.0
1920.00,        1574.0
1950.00,        1834.0
1980.00,        2415.0
2010.00,        2559.0
2040.00,        1800.0
2070.00,        1238.0
2100.00,        1081.0
2130.00,        1052.0
2160.00,        1119.0
2190.00,        1480.0
2220.00,        2141.0
2250.00,        2397.0
2280.00,        2130.0
2310.00,        1563.0
2340.00,        1186.0
2370.00,        947.0
2400.00,        888.0
2430.00,        899.0
2460.00,        899.0
2490.00,        849.0
2520.00,        891.0
2550.00,        845.0
2580.00,        863.0
2610.00,        833.0
2640.00,        797.0
2670.00,        817.0
2700.00,        782.0
2730.00,        847.0
2760.00,        858.0
2790.00,        818.0
2820.00,        774.0
2850.00,        776.0
2880.00,        748.0
2910.00,        827.0
2940.00,        878.0
2970.00,        1023.0
3000.00,        977.0
3030.00,        857.0
3060.00,        765.0
3090.00,        714.0
3120.00,        702.0
3150.00,        783.0
3180.00,        890.0
3210.00,        950.0
3240.00,        908.0
3270.00,        843.0
3300.00,        742.0
3330.00,        713.0
3360.00,        714.0
3390.00,        905.0
3420.00,        1113.0
3450.00,        1380.0
3480.00,        1358.0
3510.00,        1032.0
3540.00,        837.0
3570.00,        731.0
3600.00,        638.0
3630.00,        585.0
3660.00,        648.0
3690.00,        636.0
3720.00,        665.0
3750.00,        583.0
3780.00,        530.0
3810.00,        495.0
3840.00,        496.0
3870.00,        483.0
3900.00,        493.0
3930.00,        490.0
3960.00,        536.0
3990.00,        525.0
4020.00,        544.0
4050.00,        476.0
4080.00,        496.0
4110.00,        461.0
4140.00,        449.0
4170.00,        418.0
4200.00,        453.0
4230.00,        467.0
4260.00,        423.0
4290.00,        413.0
4320.00,        432.0
4350.00,        444.0
4380.00,        405.0
4410.00,        424.0
4440.00,        406.0
4470.00,        385.0
4500.00,        396.0
4530.00,        405.0
4560.00,        413.0
4590.00,        408.0
4620.00,        395.0
4650.00,        383.0
4680.00,        371.0
4710.00,        354.0
4740.00,        368.0
4770.00,        395.0
4800.00,        388.0
4830.00,        372.0
4860.00,        362.0
4890.00,        349.0
4920.00,        377.0
4950.00,        377.0
4980.00,        378.0
5010.00,        319.0
5040.00,        357.0
5070.00,        333.0
5100.00,        319.0
5130.00,        340.0
5160.00,        332.0
5190.00,        344.0
5220.00,        339.0
5250.00,        331.0
5280.00,        346.0
5310.00,        349.0
5340.00,        322.0
5370.00,        298.0
5400.00,        325.0
5430.00,        330.0
5460.00,        309.0
5490.00,        330.0
5520.00,        284.0
5550.00,        296.0
5580.00,        254.0
5610.00,        284.0
5640.00,        269.0
5670.00,        270.0
5700.00,        249.0
5730.00,        268.0
5760.00,        303.0
5790.00,        257.0
5820.00,        243.0
5850.00,        280.0
5880.00,        275.0
5910.00,        323.0
5940.00,        264.0
5970.00,        236.0
6000.00,        267.0
6030.00,        275.0
6060.00,        292.0
6090.00,        233.0
6120.00,        257.0
6150.00,        257.0
6180.00,        266.0
6210.00,        238.0
6240.00,        228.0
6270.00,        263.0
6300.00,        245.0
6330.00,        261.0
6360.00,        268.0
6390.00,        305.0
6420.00,        248.0
6450.00,        272.0
6480.00,        234.0
6510.00,        246.0
6540.00,        221.0
6570.00,        241.0
6600.00,        217.0
6630.00,        202.0
6660.00,        230.0
6690.00,        227.0
6720.00,        209.0
6750.00,        191.0
6780.00,        200.0
6810.00,        173.0
6840.00,        177.0
6870.00,        194.0
6900.00,        200.0
6930.00,        223.0
6960.00,        230.0
6990.00,        179.0
7020.00,        191.0
7050.00,        195.0
7080.00,        191.0
7110.00,        209.0
7140.00,        183.0
7170.00,        195.0
7200.00,        181.0
7230.00,        163.0
7260.00,        175.0
7290.00,        179.0
7320.00,        180.0
7350.00,        161.0
7380.00,        185.0
7410.00,        209.0
7440.00,        168.0
7470.00,        183.0
7500.00,        166.0
7530.00,        163.0
7560.00,        150.0
7590.00,        175.0
7620.00,        147.0
7650.00,        154.0
7680.00,        170.0
7710.00,        182.0
7740.00,        160.0
7770.00,        146.0
7800.00,        177.0
7830.00,        128.0
7860.00,        147.0
7890.00,        192.0
7920.00,        145.0
7950.00,        141.0
7980.00,        155.0
8010.00,        162.0
8040.00,        125.0
8070.00,        124.0
8100.00,        122.0
8130.00,        130.0
8160.00,        134.0
8190.00,        141.0
8220.00,        144.0
8250.00,        141.0
8280.00,        137.0
8310.00,        156.0
8340.00,        136.0
8370.00,        116.0
8400.00,        130.0
8430.00,        143.0
8460.00,        146.0
8490.00,        127.0
8520.00,        139.0
8550.00,        133.0
8580.00,        135.0
8610.00,        120.0
8640.00,        129.0
8670.00,        124.0
8700.00,        116.0
8730.00,        112.0
8760.00,        127.0
8790.00,        138.0
8820.00,        108.0
8850.00,        107.0
8880.00,        118.0
8910.00,        126.0
8940.00,        104.0
8970.00,        117.0
9000.00,        119.0
9030.00,        100.0
9060.00,        117.0
9090.00,        111.0
9120.00,        108.0
9150.00,        105.0
9180.00,        93.0
9210.00,        97.0
9240.00,        109.0
9270.00,        94.0
9300.00,        95.0
9330.00,        108.0
9360.00,        111.0
9390.00,        97.0
9420.00,        80.0
9450.00,        109.0
9480.00,        102.0
9510.00,        92.0
9540.00,        98.0
9570.00,        100.0
9600.00,        112.0
9630.00,        91.0
9660.00,        91.0
9690.00,        96.0
9720.00,        98.0
9750.00,        105.0
9780.00,        87.0
9810.00,        91.0
9840.00,        84.0
9870.00,        73.0
9900.00,        75.0
9930.00,        74.0
9960.00,        90.0
9990.00,        109.0
10020.00,        68.0
10050.00,        86.0
10080.00,        82.0
10110.00,        70.0
10140.00,        78.0
10170.00,        63.0
10200.00,        83.0
10230.00,        87.0
10260.00,        83.0
10290.00,        84.0
10320.00,        80.0
10350.00,        85.0
10380.00,        68.0
10410.00,        70.0
10440.00,        60.0
10470.00,        77.0
10500.00,        77.0
10530.00,        78.0
10560.00,        77.0
10590.00,        61.0
10620.00,        79.0
10650.00,        61.0
10680.00,        70.0
10710.00,        75.0
10740.00,        62.0
10770.00,        65.0
10800.00,        60.0
10830.00,        59.0
10860.00,        77.0
10890.00,        65.0
10920.00,        68.0
10950.00,        61.0
10980.00,        58.0
11010.00,        44.0
11040.00,        52.0
11070.00,        54.0
11100.00,        49.0
11130.00,        59.0
11160.00,        56.0
11190.00,        59.0
11220.00,        45.0
11250.00,        46.0
11280.00,        57.0
11310.00,        36.0
11340.00,        57.0
11370.00,        66.0
11400.00,        62.0
11430.00,        47.0
11460.00,        43.0
11490.00,        42.0
11520.00,        45.0
11550.00,        55.0
11580.00,        49.0
11610.00,        54.0
11640.00,        46.0
11670.00,        43.0
11700.00,        35.0
11730.00,        48.0
11760.00,        44.0
11790.00,        44.0
11820.00,        42.0
11850.00,        43.0
11880.00,        42.0
11910.00,        41.0
11940.00,        51.0
11970.00,        32.0
12000.00,        36.0
12030.00,        45.0
12060.00,        31.0
12090.00,        31.0
12120.00,        46.0
12150.00,        28.0
12180.00,        33.0
12210.00,        39.0
12240.00,        42.0
12270.00,        36.0
12300.00,        40.0
12330.00,        30.0
12360.00,        32.0
12390.00,        34.0
12420.00,        33.0
12450.00,        26.0
12480.00,        22.0
12510.00,        27.0
12540.00,        31.0
12570.00,        27.0
12600.00,        26.0
12630.00,        26.0
12660.00,        27.0
12690.00,        28.0
12720.00,        21.0
12750.00,        21.0
12780.00,        23.0
12810.00,        29.0
12840.00,        32.0
12870.00,        23.0
12900.00,        17.0
12930.00,        28.0
12960.00,        19.0
12990.00,        17.0
13020.00,        16.0
13050.00,        29.0
13080.00,        21.0
13110.00,        13.0
13140.00,        20.0
13170.00,        19.0
13200.00,        22.0
13230.00,        19.0
13260.00,        17.0
13290.00,        20.0
13320.00,        19.0
13350.00,        19.0
13380.00,        16.0
13410.00,        21.0
13440.00,        15.0
13470.00,        24.0
13500.00,        11.0
13530.00,        12.0
13560.00,        14.0
13590.00,        10.0
13620.00,        13.0
13650.00,        24.0
13680.00,        16.0
13710.00,        13.0
13740.00,        13.0
13770.00,        9.0
13800.00,        12.0
13830.00,        9.0
13860.00,        11.0
13890.00,        12.0
13920.00,        12.0
13950.00,        11.0
13980.00,        9.0
14010.00,        14.0
14040.00,        7.0
14070.00,        9.0
14100.00,        11.0
14130.00,        8.0
14160.00,        7.0
14190.00,        6.0
14220.00,        8.0
14250.00,        5.0
14280.00,        12.0
14310.00,        6.0
14340.00,        6.0
14370.00,        11.0
14400.00,        11.0
14430.00,        10.0
14460.00,        9.0
14490.00,        6.0
14520.00,        4.0
14550.00,        6.0
14580.00,        4.0
14610.00,        9.0
14640.00,        4.0
14670.00,        3.0
14700.00,        3.0
14730.00,        4.0
14760.00,        2.0
14790.00,        2.0
14820.00,        3.0
14850.00,        1.0
14880.00,        4.0
14910.00,        2.0
14940.00,        2.0
14970.00,        2.0
15000.00,        3.0
15030.00,        2.0
15060.00,        0.0
15090.00,        3.0
15120.00,        1.0
15150.00,        1.0
15180.00,        0.0
15210.00,        0.0
15240.00,        0.0
15270.00,        1.0
15300.00,        0.0
15330.00,        2.0
15360.00,        2.0
15390.00,        1.0
15420.00,        2.0
15450.00,        0.0
15480.00,        0.0
15510.00,        3.0
15540.00,        1.0
15570.00,        0.0
15600.00,        0.0
15630.00,        0.0
15660.00,        0.0
15690.00,        1.0
15720.00,        2.0
15750.00,        0.0
15780.00,        1.0
15810.00,        2.0
15840.00,        0.0
15870.00,        1.0
15900.00,        1.0
15930.00,        0.0
15960.00,        1.0
15990.00,        1.0
16020.00,        0.0
16050.00,        0.0
16080.00,        0.0
16110.00,        0.0
16140.00,        0.0
16170.00,        0.0
16200.00,        0.0
16230.00,        0.0
16260.00,        1.0
16290.00,        1.0
16320.00,        1.0
16350.00,        1.0
16380.00,        0.0
16410.00,        1.0
16440.00,        0.0
16470.00,        1.0
16500.00,        0.0
16530.00,        0.0
16560.00,        0.0
16590.00,        0.0
16620.00,        0.0
16650.00,        1.0
16680.00,        1.0
16710.00,        0.0
16740.00,        1.0
16770.00,        1.0
16800.00,        0.0
16830.00,        0.0
16860.00,        0.0
16890.00,        0.0
16920.00,        1.0
16950.00,        0.0
16980.00,        0.0
17010.00,        0.0
17040.00,        0.0
17070.00,        0.0
17100.00,        1.0
17130.00,        0.0
17160.00,        0.0
17190.00,        0.0
17220.00,        1.0
17250.00,        0.0
17280.00,        0.0
17310.00,        0.0
17340.00,        1.0
17370.00,        0.0
17400.00,        0.0
17430.00,        0.0
17460.00,        0.0
17490.00,        1.0
17520.00,        0.0
17550.00,        0.0
17580.00,        0.0
17610.00,        0.0
17640.00,        0.0
17670.00,        1.0
17700.00,        0.0
17730.00,        0.0
17760.00,        0.0
17790.00,        0.0
17820.00,        0.0
17850.00,        0.0
17880.00,        0.0
17910.00,        1.0
17940.00,        0.0
17970.00,        0.0
18000.00,        0.0
18030.00,        0.0
18060.00,        0.0
18090.00,        0.0
18120.00,        0.0
18150.00,        0.0
18180.00,        0.0
18210.00,        0.0
18240.00,        0.0
18270.00,        0.0
18300.00,        0.0
18330.00,        0.0
18360.00,        0.0
18390.00,        0.0
18420.00,        0.0
18450.00,        1.0
18480.00,        0.0
18510.00,        0.0
18540.00,        0.0
18570.00,        0.0
18600.00,        0.0
18630.00,        2.0
18660.00,        1.0
18690.00,        0.0
18720.00,        0.0
18750.00,        0.0
18780.00,        0.0
18810.00,        0.0
18840.00,        0.0
18870.00,        0.0
18900.00,        0.0
18930.00,        1.0
18960.00,        0.0
18990.00,        0.0
19020.00,        0.0
19050.00,        0.0
19080.00,        0.0
19110.00,        0.0
19140.00,        0.0
19170.00,        0.0
19200.00,        0.0
19230.00,        0.0
19260.00,        0.0
19290.00,        0.0
19320.00,        0.0
19350.00,        0.0
19380.00,        1.0
19410.00,        0.0
19440.00,        0.0
19470.00,        0.0
19500.00,        0.0
19530.00,        0.0
19560.00,        0.0
19590.00,        0.0
19620.00,        0.0
19650.00,        0.0
19680.00,        0.0
19710.00,        0.0
19740.00,        0.0
19770.00,        0.0
19800.00,        0.0
19830.00,        0.0
19860.00,        0.0
19890.00,        0.0
19920.00,        0.0
19950.00,        0.0
19980.00,        1.0
20010.00,        0.0
20040.00,        0.0
20070.00,        0.0
20100.00,        0.0
20130.00,        0.0
20160.00,        1.0
20190.00,        0.0
20220.00,        0.0
20250.00,        0.0
20280.00,        0.0
20310.00,        1.0
20340.00,        0.0
20370.00,        0.0
20400.00,        0.0
20430.00,        0.0
20460.00,        0.0
20490.00,        0.0
20520.00,        0.0
20550.00,        0.0
20580.00,        0.0
20610.00,        0.0
20640.00,        0.0
20670.00,        0.0
20700.00,        0.0
20730.00,        0.0
20760.00,        0.0
20790.00,        0.0
20820.00,        0.0
20850.00,        0.0
20880.00,        0.0
20910.00,        0.0
20940.00,        0.0
20970.00,        0.0
21000.00,        0.0
21030.00,        0.0
21060.00,        0.0
21090.00,        0.0
21120.00,        0.0
21150.00,        0.0
21180.00,        0.0
21210.00,        0.0
21240.00,        0.0
21270.00,        0.0
21300.00,        0.0
21330.00,        0.0
21360.00,        0.0
21390.00,        0.0
21420.00,        0.0
21450.00,        0.0
21480.00,        0.0
21510.00,        0.0
21540.00,        0.0
21570.00,        0.0
21600.00,        0.0
21630.00,        0.0
21660.00,        0.0
21690.00,        0.0
21720.00,        0.0
21750.00,        0.0
21780.00,        0.0
21810.00,        0.0
21840.00,        0.0
21870.00,        0.0
21900.00,        0.0
21930.00,        0.0
21960.00,        0.0
21990.00,        0.0
22020.00,        0.0
22050.00,        0.0
22080.00,        0.0
22110.00,        0.0
22140.00,        0.0
22170.00,        0.0
22200.00,        0.0
22230.00,        0.0
22260.00,        0.0
22290.00,        0.0
22320.00,        1.0
22350.00,        0.0
22380.00,        0.0
22410.00,        0.0
22440.00,        0.0
22470.00,        0.0
22500.00,        0.0
22530.00,        0.0
22560.00,        0.0
22590.00,        0.0
22620.00,        0.0
22650.00,        0.0
22680.00,        0.0
22710.00,        0.0
22740.00,        0.0
22770.00,        0.0
22800.00,        0.0
22830.00,        0.0
22860.00,        0.0
22890.00,        0.0
22920.00,        0.0
22950.00,        0.0
22980.00,        0.0
23010.00,        0.0
23040.00,        0.0
23070.00,        0.0
23100.00,        0.0
23130.00,        0.0
23160.00,        0.0
23190.00,        0.0
23220.00,        0.0
23250.00,        0.0
23280.00,        0.0
23310.00,        0.0
23340.00,        0.0
23370.00,        0.0
23400.00,        0.0
23430.00,        0.0
23460.00,        0.0
23490.00,        0.0
23520.00,        0.0
23550.00,        0.0
23580.00,        0.0
23610.00,        0.0
23640.00,        0.0
23670.00,        0.0
23700.00,        0.0
23730.00,        0.0
23760.00,        0.0
23790.00,        0.0
23820.00,        0.0
23850.00,        0.0
23880.00,        0.0
23910.00,        0.0
23940.00,        0.0
23970.00,        0.0
24000.00,        0.0
24030.00,        0.0
24060.00,        0.0
24090.00,        0.0
24120.00,        0.0
24150.00,        0.0
24180.00,        0.0
24210.00,        0.0
24240.00,        0.0
24270.00,        0.0
24300.00,        0.0
24330.00,        0.0
24360.00,        0.0
24390.00,        0.0
24420.00,        0.0
24450.00,        0.0
24480.00,        0.0
24510.00,        0.0
24540.00,        0.0
24570.00,        0.0
24600.00,        0.0
24630.00,        0.0
24660.00,        0.0
24690.00,        0.0
24720.00,        0.0
24750.00,        0.0
24780.00,        0.0
24810.00,        0.0
24840.00,        0.0
24870.00,        0.0
24900.00,        0.0
24930.00,        0.0
24960.00,        0.0
24990.00,        0.0
25020.00,        0.0
25050.00,        0.0
25080.00,        0.0
25110.00,        0.0
25140.00,        0.0
25170.00,        0.0
25200.00,        0.0
25230.00,        0.0
25260.00,        0.0
25290.00,        0.0
25320.00,        0.0
25350.00,        0.0
25380.00,        0.0
25410.00,        0.0
25440.00,        0.0
25470.00,        0.0
25500.00,        0.0
25530.00,        0.0
25560.00,        0.0
25590.00,        0.0
25620.00,        0.0
25650.00,        0.0
25680.00,        0.0
25710.00,        0.0
25740.00,        0.0
25770.00,        0.0
25800.00,        0.0
25830.00,        0.0
25860.00,        0.0
25890.00,        0.0
25920.00,        0.0
25950.00,        0.0
25980.00,        0.0
26010.00,        0.0
26040.00,        0.0
26070.00,        0.0
26100.00,        0.0
26130.00,        0.0
26160.00,        0.0
26190.00,        0.0
26220.00,        0.0
26250.00,        0.0
26280.00,        0.0
26310.00,        0.0
26340.00,        0.0
26370.00,        0.0
26400.00,        0.0
26430.00,        0.0
26460.00,        0.0
26490.00,        0.0
26520.00,        0.0
26550.00,        0.0
26580.00,        0.0
26610.00,        0.0
26640.00,        0.0
26670.00,        0.0
26700.00,        0.0
26730.00,        0.0
26760.00,        0.0
26790.00,        0.0
26820.00,        0.0
26850.00,        0.0
26880.00,        0.0
26910.00,        0.0
26940.00,        0.0
26970.00,        0.0
27000.00,        0.0
27030.00,        0.0
27060.00,        0.0
27090.00,        0.0
27120.00,        0.0
27150.00,        0.0
27180.00,        0.0
27210.00,        0.0
27240.00,        0.0
27270.00,        0.0
27300.00,        0.0
27330.00,        0.0
27360.00,        0.0
27390.00,        0.0
27420.00,        0.0
27450.00,        0.0
27480.00,        0.0
27510.00,        0.0
27540.00,        0.0
27570.00,        0.0
27600.00,        0.0
27630.00,        0.0
27660.00,        0.0
27690.00,        0.0
27720.00,        0.0
27750.00,        0.0
27780.00,        0.0
27810.00,        0.0
27840.00,        0.0
27870.00,        0.0
27900.00,        0.0
27930.00,        0.0
27960.00,        0.0
27990.00,        0.0
28020.00,        0.0
28050.00,        0.0
28080.00,        0.0
28110.00,        0.0
28140.00,        0.0
28170.00,        0.0
28200.00,        0.0
28230.00,        0.0
28260.00,        0.0
28290.00,        0.0
28320.00,        0.0
28350.00,        0.0
28380.00,        0.0
28410.00,        0.0
28440.00,        0.0
28470.00,        0.0
28500.00,        0.0
28530.00,        0.0
28560.00,        0.0
28590.00,        0.0
28620.00,        0.0
28650.00,        0.0
28680.00,        0.0
28710.00,        0.0
28740.00,        0.0
28770.00,        0.0
28800.00,        0.0
28830.00,        0.0
28860.00,        0.0
28890.00,        0.0
28920.00,        0.0
28950.00,        0.0
28980.00,        0.0
29010.00,        0.0
29040.00,        0.0
29070.00,        0.0
29100.00,        0.0
29130.00,        0.0
29160.00,        0.0
29190.00,        0.0
29220.00,        0.0
29250.00,        0.0
29280.00,        0.0
29310.00,        0.0
29340.00,        0.0
29370.00,        0.0
29400.00,        0.0
29430.00,        0.0
29460.00,        0.0
29490.00,        0.0
29520.00,        0.0
29550.00,        0.0
29580.00,        0.0
29610.00,        0.0
29640.00,        0.0
29670.00,        0.0
29700.00,        0.0
29730.00,        0.0
29760.00,        0.0
29790.00,        0.0
29820.00,        0.0
29850.00,        0.0
29880.00,        0.0
29910.00,        0.0
29940.00,        0.0
29970.00,        0.0
30000.00,        0.0
30030.00,        0.0
30060.00,        0.0
30090.00,        0.0
30120.00,        0.0
30150.00,        0.0
30180.00,        0.0
30210.00,        0.0
30240.00,        0.0
30270.00,        0.0
30300.00,        0.0
30330.00,        0.0
30360.00,        0.0
30390.00,        0.0
30420.00,        0.0
30450.00,        0.0
30480.00,        0.0
30510.00,        0.0
30540.00,        0.0
30570.00,        0.0
30600.00,        0.0
30630.00,        0.0
30660.00,        0.0
30690.00,        0.0
30720.00,        0.0
30750.00,        0.0
30780.00,        0.0
30810.00,        0.0
30840.00,        0.0
30870.00,        0.0
30900.00,        0.0
30930.00,        0.0
30960.00,        0.0
30990.00,        0.0
31020.00,        0.0
31050.00,        0.0
31080.00,        0.0
31110.00,        0.0
31140.00,        0.0
31170.00,        0.0
31200.00,        0.0
31230.00,        0.0
31260.00,        0.0
31290.00,        0.0
31320.00,        0.0
31350.00,        0.0
31380.00,        0.0
31410.00,        0.0
31440.00,        0.0
31470.00,        0.0
31500.00,        0.0
31530.00,        0.0
31560.00,        0.0
31590.00,        0.0
31620.00,        0.0
31650.00,        0.0
31680.00,        0.0
31710.00,        0.0
31740.00,        0.0
31770.00,        0.0
31800.00,        0.0
31830.00,        0.0
31860.00,        0.0
31890.00,        0.0
31920.00,        0.0
31950.00,        0.0
31980.00,        0.0
32010.00,        0.0
32040.00,        0.0
32070.00,        0.0
32100.00,        0.0
32130.00,        0.0
32160.00,        0.0
32190.00,        0.0
32220.00,        0.0
32250.00,        0.0
32280.00,        0.0
32310.00,        0.0
32340.00,        0.0
32370.00,        0.0
32400.00,        0.0
32430.00,        0.0
32460.00,        0.0
32490.00,        0.0
32520.00,        0.0
32550.00,        0.0
32580.00,        0.0
32610.00,        0.0
32640.00,        0.0
32670.00,        0.0
32700.00,        0.0
32730.00,        0.0
32760.00,        0.0
32790.00,        0.0
32820.00,        0.0
32850.00,        0.0
32880.00,        0.0
32910.00,        0.0
32940.00,        0.0
32970.00,        0.0
33000.00,        0.0
33030.00,        0.0
33060.00,        0.0
33090.00,        0.0
33120.00,        0.0
33150.00,        0.0
33180.00,        0.0
33210.00,        0.0
33240.00,        0.0
33270.00,        0.0
33300.00,        0.0
33330.00,        0.0
33360.00,        0.0
33390.00,        0.0
33420.00,        0.0
33450.00,        0.0
33480.00,        0.0
33510.00,        0.0
33540.00,        0.0
33570.00,        0.0
33600.00,        0.0
33630.00,        0.0
33660.00,        0.0
33690.00,        0.0
33720.00,        0.0
33750.00,        0.0
33780.00,        0.0
33810.00,        0.0
33840.00,        0.0
33870.00,        0.0
33900.00,        0.0
33930.00,        0.0
33960.00,        0.0
33990.00,        0.0
34020.00,        0.0
34050.00,        0.0
34080.00,        0.0
34110.00,        0.0
34140.00,        0.0
34170.00,        0.0
34200.00,        0.0
34230.00,        0.0
34260.00,        0.0
34290.00,        0.0
34320.00,        0.0
34350.00,        0.0
34380.00,        0.0
34410.00,        0.0
34440.00,        0.0
34470.00,        0.0
34500.00,        0.0
34530.00,        0.0
34560.00,        0.0
34590.00,        0.0
34620.00,        0.0
34650.00,        0.0
34680.00,        0.0
34710.00,        0.0
34740.00,        0.0
34770.00,        0.0
34800.00,        0.0
34830.00,        0.0
34860.00,        0.0
34890.00,        0.0
34920.00,        0.0
34950.00,        0.0
34980.00,        0.0
35010.00,        0.0
35040.00,        0.0
35070.00,        0.0
35100.00,        0.0
35130.00,        0.0
35160.00,        0.0
35190.00,        0.0
35220.00,        0.0
35250.00,        0.0
35280.00,        0.0
35310.00,        0.0
35340.00,        0.0
35370.00,        0.0
35400.00,        0.0
35430.00,        0.0
35460.00,        0.0
35490.00,        0.0
35520.00,        0.0
35550.00,        0.0
35580.00,        0.0
35610.00,        0.0
35640.00,        0.0
35670.00,        0.0
35700.00,        0.0
35730.00,        0.0
35760.00,        0.0
35790.00,        0.0
35820.00,        0.0
35850.00,        0.0
35880.00,        0.0
35910.00,        0.0
35940.00,        0.0
35970.00,        0.0
36000.00,        0.0
36030.00,        0.0
36060.00,        0.0
36090.00,        0.0
36120.00,        0.0
36150.00,        0.0
36180.00,        0.0
36210.00,        0.0
36240.00,        0.0
36270.00,        0.0
36300.00,        0.0
36330.00,        0.0
36360.00,        0.0
36390.00,        0.0
36420.00,        0.0
36450.00,        0.0
36480.00,        0.0
36510.00,        0.0
36540.00,        0.0
36570.00,        0.0
36600.00,        0.0
36630.00,        0.0
36660.00,        0.0
36690.00,        0.0
36720.00,        0.0
36750.00,        0.0
36780.00,        0.0
36810.00,        0.0
36840.00,        0.0
36870.00,        0.0
36900.00,        0.0
36930.00,        0.0
36960.00,        0.0
36990.00,        0.0
37020.00,        0.0
37050.00,        0.0
37080.00,        0.0
37110.00,        0.0
37140.00,        0.0
37170.00,        0.0
37200.00,        0.0
37230.00,        0.0
37260.00,        0.0
37290.00,        0.0
37320.00,        0.0
37350.00,        0.0
37380.00,        0.0
37410.00,        0.0
37440.00,        0.0
37470.00,        0.0
37500.00,        0.0
37530.00,        0.0
37560.00,        0.0
37590.00,        0.0
37620.00,        0.0
37650.00,        0.0
37680.00,        0.0
37710.00,        0.0
37740.00,        0.0
37770.00,        0.0
37800.00,        0.0
37830.00,        0.0
37860.00,        0.0
37890.00,        0.0
37920.00,        0.0
37950.00,        0.0
37980.00,        0.0
38010.00,        0.0
38040.00,        0.0
38070.00,        0.0
38100.00,        0.0
38130.00,        0.0
38160.00,        0.0
38190.00,        0.0
38220.00,        0.0
38250.00,        0.0
38280.00,        0.0
38310.00,        0.0
38340.00,        0.0
38370.00,        0.0
38400.00,        0.0
38430.00,        0.0
38460.00,        0.0
38490.00,        0.0
38520.00,        0.0
38550.00,        0.0
38580.00,        0.0
38610.00,        0.0
38640.00,        0.0
38670.00,        0.0
38700.00,        0.0
38730.00,        0.0
38760.00,        0.0
38790.00,        0.0
38820.00,        0.0
38850.00,        0.0
38880.00,        0.0
38910.00,        0.0
38940.00,        0.0
38970.00,        0.0
39000.00,        0.0
39030.00,        0.0
39060.00,        0.0
39090.00,        0.0
39120.00,        0.0
39150.00,        0.0
39180.00,        0.0
39210.00,        0.0
39240.00,        0.0
39270.00,        0.0
39300.00,        0.0
39330.00,        0.0
39360.00,        0.0
39390.00,        0.0
39420.00,        0.0
39450.00,        0.0
39480.00,        0.0
39510.00,        0.0
39540.00,        0.0
39570.00,        0.0
39600.00,        0.0
39630.00,        0.0
39660.00,        0.0
39690.00,        0.0
39720.00,        0.0
39750.00,        0.0
39780.00,        0.0
39810.00,        0.0
39840.00,        0.0
39870.00,        0.0
39900.00,        0.0
39930.00,        0.0
39960.00,        0.0
39990.00,        0.0
40020.00,        0.0
40050.00,        0.0
40080.00,        0.0
40110.00,        0.0
40140.00,        0.0
40170.00,        0.0
40200.00,        0.0
40230.00,        0.0
40260.00,        0.0
40290.00,        0.0
40320.00,        0.0
40350.00,        0.0
40380.00,        0.0
40410.00,        0.0
40440.00,        0.0
40470.00,        0.0
40500.00,        0.0
40530.00,        0.0
40560.00,        0.0
40590.00,        0.0
40620.00,        0.0
40650.00,        0.0
40680.00,        0.0
40710.00,        0.0
40740.00,        0.0
40770.00,        0.0
40800.00,        0.0
40830.00,        0.0
40860.00,        0.0
40890.00,        0.0
40920.00,        0.0
40950.00,        0.0
#ENDOFDATA   :