File: MATLAB/file1.msa
#FORMAT      : EMSA/MAS SPECTRAL DATA FILE
#VERSION     : 1.0
#TITLE       : Bruker AXS spectrum
#DATE        : 01-DEC-2022
#TIME        : 09:24
#OWNER       : Bruker AXS
#NPOINTS     : 4096.0
#NCOLUMNS    : 4.0
#XUNITS      : keV
#YUNITS      : Counts
#DATATYPE    : Y
#XPERCHAN    : 0.0050000
#OFFSET      : -0.4783000
#SIGNALTYPE  : EDS
#CHOFFSET    : 96
#BEAMKV   -kV: 15.0
#ELEVANGLE   : 35.0
#AZIMANGLE   : 45.0
#XTILTSTGE   : 0.0
#YTILTSTGE   : 0.0
#LIVETIME  -s: 25.917
#REALTIME  -s: 26.977
##RTDET      : XFlash 5030
#EDSDET      :
#TDEADLYR -cm: 0.000003
#TACTLYR  -cm: 0.045
##FANO       : 0.1068232
##MNFWHM -keV: 0.1328904
##IDENT      : O,Fe,Na,Al,Si,Ca,Mg,Ti,K,P,S
#SPECTRUM    :
         0.0,         0.0,         0.0,         0.0,
         0.0,         0.0,         0.0,         0.0,
         0.0,         0.0,         0.0,         0.0,
         0.0,         0.0,         0.0,         0.0,
         0.0,         0.0,         0.0,         0.0,
         0.0,         0.0,         0.0,         0.0,
         0.0,         0.0,         0.0,         0.0,
         0.0,         0.0,         0.0,         0.0,
         0.0,         0.0,         0.0,         0.0,
         0.0,         0.0,         0.0,         1.0,
        32.0,        43.0,        94.0,       141.0,
       945.0,      1290.0,      1672.0,      1965.0,
      3098.0,      2988.0,      2736.0,      2517.0,
       809.0,       551.0,       389.0,       250.0,
        12.0,        10.0,         4.0,         1.0,
         0.0,         0.0,         0.0,         1.0,
        14.0,        17.0,        16.0,        21.0,
        22.0,        26.0,        27.0,        36.0,
        80.0,        89.0,        99.0,       111.0,
       130.0,       134.0,       127.0,       107.0,
        61.0,        49.0,        48.0,        40.0,
        44.0,        50.0,        38.0,        33.0,
        51.0,        61.0,        60.0,        62.0,
       141.0,       188.0,       277.0,       343.0,
      1258.0,      1429.0,      1726.0,      2047.0,
      3164.0,      3144.0,      2933.0,      2935.0,
      1454.0,      1117.0,       921.0,       690.0,
       137.0,       103.0,        78.0,        60.0,
        44.0,        41.0,        42.0,        36.0,
        55.0,        39.0,        43.0,        41.0,
        64.0,        59.0,        54.0,        51.0,
        52.0,        54.0,        58.0,        59.0,
        70.0,        63.0,        52.0,        63.0,
        69.0,        65.0,        84.0,        69.0,
        86.0,        84.0,        95.0,        82.0,
        99.0,        73.0,        79.0,        79.0,
       126.0,       132.0,       192.0,       171.0,
       469.0,       561.0,       626.0,       706.0,
      1000.0,       971.0,       955.0,      1023.0,
       607.0,       487.0,       441.0,       348.0,
       164.0,       145.0,       121.0,       109.0,
        88.0,        94.0,        87.0,        94.0,
        84.0,       101.0,        87.0,        81.0,
       112.0,       117.0,        91.0,        96.0,
       107.0,        89.0,        89.0,       104.0,
       100.0,       117.0,       100.0,       105.0,
       120.0,       125.0,       110.0,       130.0,
       203.0,       249.0,       292.0,       335.0,
       906.0,      1019.0,      1200.0,      1324.0,
      2035.0,      2105.0,      2076.0,      1989.0,
      1417.0,      1298.0,      1123.0,       950.0,
       439.0,       366.0,       286.0,       248.0,
       145.0,       127.0,       127.0,       134.0,
       219.0,       261.0,       314.0,       383.0,
      1166.0,      1400.0,      1696.0,      1994.0,
      3580.0,      3788.0,      3909.0,      4092.0,
      3690.0,      3437.0,      3089.0,      2760.0,
      1371.0,      1139.0,       948.0,       812.0,
       349.0,       304.0,       270.0,       236.0,
       139.0,       126.0,       119.0,       106.0,
        92.0,        82.0,        62.0,        61.0,
        58.0,        57.0,        51.0,        49.0,
        57.0,        49.0,        51.0,        51.0,
        60.0,        66.0,        65.0,        58.0,
        68.0,        67.0,        72.0,        67.0,
        88.0,        85.0,        86.0,       104.0,
        87.0,        85.0,        93.0,        81.0,
        80.0,        82.0,        83.0,        75.0,
        88.0,        72.0,        69.0,        63.0,
        56.0,        50.0,        63.0,        60.0,
        46.0,        53.0,        54.0,        66.0,
        52.0,        53.0,        45.0,        49.0,
        58.0,        50.0,        53.0,        55.0,
        48.0,        48.0,        58.0,        41.0,
        49.0,        59.0,        57.0,        47.0,
        63.0,        58.0,        50.0,        47.0,
        38.0,        54.0,        55.0,        38.0,
        44.0,        55.0,        47.0,        58.0,
        57.0,        52.0,        48.0,        53.0,
        50.0,        39.0,        47.0,        41.0,
        50.0,        50.0,        47.0,        58.0,
        48.0,        64.0,        62.0,        66.0,
        73.0,        89.0,        72.0,        68.0,
        78.0,        73.0,        65.0,        69.0,
        70.0,        63.0,        68.0,        49.0,
        43.0,        50.0,        53.0,        45.0,
        41.0,        60.0,        57.0,        61.0,
        52.0,        53.0,        68.0,        59.0,
        47.0,        52.0,        47.0,        56.0,
        47.0,        41.0,        40.0,        28.0,
        49.0,        47.0,        57.0,        42.0,
        36.0,        44.0,        40.0,        41.0,
        43.0,        32.0,        43.0,        44.0,
        44.0,        40.0,        36.0,        47.0,
        50.0,        46.0,        37.0,        44.0,
        43.0,        39.0,        50.0,        52.0,
        47.0,        45.0,        47.0,        34.0,
        39.0,        41.0,        41.0,        35.0,
        44.0,        41.0,        38.0,        45.0,
        41.0,        42.0,        41.0,        41.0,
        43.0,        46.0,        45.0,        43.0,
        36.0,        43.0,        42.0,        52.0,
        71.0,        67.0,        83.0,        99.0,
       148.0,       140.0,       164.0,       185.0,
       203.0,       193.0,       214.0,       209.0,
       184.0,       180.0,       165.0,       146.0,
       103.0,        93.0,       100.0,        64.0,
        48.0,        47.0,        45.0,        35.0,
        37.0,        33.0,        40.0,        32.0,
        34.0,        45.0,        36.0,        37.0,
        32.0,        34.0,        34.0,        32.0,
        38.0,        47.0,        53.0,        47.0,
        59.0,        70.0,        50.0,        61.0,
        53.0,        38.0,        48.0,        49.0,
        39.0,        35.0,        29.0,        32.0,
        21.0,        31.0,        25.0,        39.0,
        34.0,        30.0,        31.0,        32.0,
        32.0,        35.0,        33.0,        20.0,
        30.0,        36.0,        29.0,        29.0,
        35.0,        35.0,        29.0,        25.0,
        27.0,        30.0,        38.0,        42.0,
        30.0,        29.0,        26.0,        23.0,
        22.0,        24.0,        24.0,        24.0,
        26.0,        26.0,        20.0,        25.0,
        23.0,        28.0,        34.0,        23.0,
        19.0,        23.0,        27.0,        30.0,
        30.0,        36.0,        34.0,        31.0,
        25.0,        21.0,        14.0,        16.0,
        24.0,        16.0,        20.0,        28.0,
        23.0,        22.0,        28.0,        28.0,
        19.0,        21.0,        25.0,        27.0,
        21.0,        22.0,        20.0,        23.0,
        23.0,        23.0,        22.0,        22.0,
        18.0,        18.0,        23.0,        24.0,
        28.0,        19.0,        15.0,        19.0,
        20.0,        25.0,        25.0,        20.0,
        20.0,        22.0,        21.0,        22.0,
        24.0,        20.0,        17.0,        23.0,
        21.0,        21.0,        22.0,        22.0,
        16.0,        20.0,        22.0,        24.0,
        24.0,        25.0,        23.0,        22.0,
        15.0,        25.0,        23.0,        19.0,
        21.0,        16.0,        18.0,        23.0,
        21.0,        18.0,        19.0,        19.0,
        23.0,        20.0,        21.0,        19.0,
        23.0,        26.0,        19.0,        15.0,
        21.0,        27.0,        22.0,        19.0,
        17.0,        21.0,        19.0,        19.0,
        18.0,        16.0,        17.0,        21.0,
        24.0,        22.0,        21.0,        17.0,
        19.0,        21.0,        20.0,        17.0,
        16.0,        14.0,        18.0,        23.0,
         8.0,        21.0,        19.0,        24.0,
        18.0,        18.0,        18.0,        14.0,
        14.0,        19.0,        26.0,        24.0,
        19.0,        20.0,        21.0,        19.0,
        15.0,        23.0,        24.0,        21.0,
        13.0,        14.0,        15.0,        15.0,
        18.0,        21.0,        15.0,        18.0,
        23.0,        19.0,        24.0,        22.0,
        24.0,        18.0,        17.0,        18.0,
        12.0,        13.0,        16.0,        12.0,
        23.0,        17.0,        15.0,        13.0,
        18.0,        16.0,        17.0,        16.0,
        23.0,        14.0,         9.0,        11.0,
        22.0,        13.0,        15.0,        20.0,
        20.0,        19.0,        11.0,        19.0,
        16.0,        18.0,        11.0,        16.0,
        15.0,        11.0,        13.0,        14.0,
        23.0,        13.0,        17.0,        13.0,
        20.0,        23.0,        14.0,        30.0,
        28.0,        16.0,        27.0,        27.0,
        23.0,        27.0,        27.0,        27.0,
        28.0,        35.0,        27.0,        23.0,
        26.0,        18.0,        26.0,        22.0,
        10.0,        16.0,        11.0,        17.0,
        10.0,        12.0,        12.0,        20.0,
        21.0,        15.0,        16.0,        14.0,
        10.0,        12.0,        11.0,         8.0,
         8.0,        16.0,        18.0,        15.0,
        15.0,        13.0,        11.0,        18.0,
        21.0,        15.0,        14.0,        11.0,
        11.0,        15.0,        11.0,        14.0,
         9.0,        10.0,        17.0,        13.0,
        11.0,        17.0,        16.0,        11.0,
        14.0,         8.0,        11.0,        20.0,
        19.0,        17.0,        17.0,        13.0,
        15.0,        21.0,        17.0,        11.0,
        16.0,        12.0,         7.0,        12.0,
         8.0,        13.0,        12.0,        13.0,
         9.0,         9.0,        10.0,        21.0,
        11.0,        16.0,        16.0,        19.0,
        12.0,         9.0,        12.0,        18.0,
        12.0,        16.0,        12.0,        16.0,
         9.0,        14.0,         9.0,        12.0,
        10.0,         8.0,        10.0,         8.0,
        25.0,        19.0,        14.0,        10.0,
         8.0,        10.0,         5.0,         6.0,
        12.0,        14.0,        14.0,        19.0,
        14.0,         8.0,        19.0,        12.0,
         5.0,         9.0,        16.0,        10.0,
        10.0,         6.0,        12.0,        14.0,
         9.0,         8.0,        13.0,        15.0,
         8.0,        12.0,         4.0,        12.0,
        13.0,        16.0,        15.0,        10.0,
        12.0,         4.0,        13.0,        13.0,
        15.0,         9.0,        15.0,         8.0,
        10.0,        13.0,         5.0,        13.0,
         8.0,        15.0,         6.0,        10.0,
        12.0,        12.0,        10.0,         6.0,
        12.0,         8.0,        10.0,         8.0,
        10.0,        10.0,         7.0,         8.0,
        13.0,        11.0,        14.0,         8.0,
        14.0,         6.0,         9.0,        13.0,
        12.0,        11.0,        10.0,        13.0,
        16.0,         7.0,         7.0,         4.0,
        12.0,        13.0,        10.0,         6.0,
         9.0,         6.0,         7.0,         7.0,
         7.0,        12.0,        11.0,         7.0,
        12.0,        12.0,        17.0,         8.0,
         6.0,         8.0,        10.0,        10.0,
         6.0,        16.0,         9.0,        11.0,
        11.0,         4.0,        11.0,        12.0,
        13.0,        16.0,         6.0,        11.0,
         7.0,         8.0,         6.0,        12.0,
         9.0,        11.0,        15.0,         9.0,
         8.0,        12.0,        12.0,         8.0,
         9.0,         6.0,         7.0,        10.0,
         6.0,        10.0,         6.0,         9.0,
        10.0,        10.0,         8.0,         7.0,
         5.0,        10.0,         8.0,        16.0,
        12.0,        10.0,        10.0,         3.0,
        10.0,         7.0,        11.0,         7.0,
         6.0,         9.0,        11.0,        11.0,
         9.0,         6.0,         4.0,         6.0,
         8.0,        10.0,         7.0,         6.0,
         7.0,         9.0,         8.0,         7.0,
         8.0,         6.0,        10.0,         7.0,
         8.0,         9.0,         7.0,         7.0,
         5.0,         6.0,         7.0,         8.0,
         7.0,         7.0,         6.0,         4.0,
         5.0,         7.0,         6.0,        11.0,
         9.0,         8.0,         5.0,        10.0,
         8.0,        13.0,         8.0,         9.0,
         7.0,         6.0,        10.0,         8.0,
        11.0,         5.0,         9.0,         7.0,
         4.0,         8.0,         7.0,         9.0,
         7.0,         7.0,         3.0,         5.0,
        11.0,         6.0,         9.0,         8.0,
         9.0,         6.0,         9.0,         6.0,
         9.0,         9.0,        10.0,        12.0,
        11.0,         6.0,         8.0,         6.0,
        11.0,         7.0,         5.0,         7.0,
         5.0,        10.0,         5.0,         3.0,
         9.0,         5.0,         6.0,         8.0,
         8.0,         9.0,         2.0,         9.0,
         8.0,         7.0,         6.0,         8.0,
         3.0,        10.0,         5.0,         7.0,
         5.0,        11.0,         6.0,        11.0,
         5.0,        11.0,         9.0,        11.0,
         8.0,         6.0,         9.0,         7.0,
         3.0,         8.0,         9.0,         4.0,
         4.0,        10.0,         4.0,         6.0,
         5.0,         4.0,        12.0,         7.0,
         8.0,         3.0,         8.0,         5.0,
         1.0,         4.0,         5.0,         6.0,
        11.0,         3.0,         4.0,         5.0,
         5.0,         7.0,         4.0,         5.0,
         8.0,         6.0,         4.0,        10.0,
         2.0,         4.0,         8.0,         8.0,
         4.0,         6.0,         7.0,         7.0,
         6.0,         6.0,         5.0,         6.0,
         4.0,        11.0,         5.0,         5.0,
         8.0,         5.0,         6.0,         4.0,
         5.0,         5.0,         6.0,         5.0,
         4.0,         6.0,         4.0,         6.0,
         3.0,         6.0,         3.0,         9.0,
         3.0,         7.0,         7.0,         3.0,
         6.0,         6.0,         4.0,         4.0,
         5.0,         3.0,         5.0,         4.0,
         2.0,         5.0,         8.0,         1.0,
         6.0,         6.0,         4.0,         7.0,
         3.0,         4.0,         3.0,         6.0,
         3.0,         5.0,         3.0,         7.0,
         3.0,         4.0,         9.0,         5.0,
         4.0,         2.0,         7.0,         6.0,
         7.0,         5.0,         3.0,         9.0,
         6.0,         3.0,         7.0,         4.0,
         2.0,         4.0,         4.0,         5.0,
         5.0,         4.0,         3.0,         5.0,
         6.0,         2.0,         5.0,         4.0,
         4.0,         4.0,         6.0,         4.0,
         8.0,         3.0,         2.0,         2.0,
         6.0,         1.0,         1.0,         9.0,
         2.0,         9.0,         5.0,         5.0,
         5.0,         3.0,         3.0,         8.0,
         6.0,         8.0,         4.0,         8.0,
         4.0,         7.0,         5.0,         5.0,
         5.0,         1.0,         4.0,         1.0,
         6.0,         4.0,         5.0,         6.0,
         7.0,         3.0,         5.0,         6.0,
         2.0,         3.0,         9.0,         2.0,
         2.0,         4.0,         5.0,         5.0,
         4.0,         5.0,         6.0,         4.0,
         3.0,         7.0,         2.0,         3.0,
         7.0,         6.0,         6.0,         4.0,
         4.0,         0.0,         3.0,         7.0,
         2.0,         4.0,         2.0,         6.0,
         5.0,         4.0,         3.0,         6.0,
         3.0,         4.0,         3.0,         3.0,
         3.0,         2.0,         2.0,         5.0,
         3.0,         3.0,         2.0,         4.0,
         5.0,         3.0,         6.0,         6.0,
         0.0,         2.0,         3.0,         3.0,
         3.0,         1.0,         4.0,         3.0,
         3.0,         3.0,         2.0,         3.0,
         6.0,         6.0,         1.0,         2.0,
         3.0,         4.0,         6.0,         3.0,
         7.0,         5.0,         3.0,         6.0,
         1.0,         4.0,         4.0,         4.0,
         4.0,         1.0,         2.0,         1.0,
         3.0,         2.0,         3.0,         3.0,
         4.0,         4.0,         5.0,         4.0,
         3.0,         1.0,         3.0,         3.0,
         2.0,         1.0,         2.0,         3.0,
         4.0,         4.0,         4.0,         1.0,
         3.0,         5.0,         1.0,         2.0,
         2.0,         1.0,         2.0,         2.0,
         6.0,         2.0,         1.0,         4.0,
         1.0,         3.0,         4.0,         4.0,
         5.0,         3.0,         1.0,         1.0,
         2.0,         2.0,         3.0,         3.0,
         1.0,         4.0,         5.0,         3.0,
         2.0,         0.0,         2.0,         0.0,
         1.0,         1.0,         2.0,         2.0,
         3.0,         2.0,         5.0,         2.0,
         1.0,         2.0,         2.0,         1.0,
         0.0,         1.0,         4.0,         1.0,
         1.0,         4.0,         1.0,         1.0,
         0.0,         4.0,         1.0,         3.0,
         1.0,         2.0,         1.0,         2.0,
         2.0,         2.0,         3.0,         1.0,
         0.0,         0.0,         2.0,         1.0,
         2.0,         2.0,         4.0,         2.0,
         2.0,         1.0,         1.0,         2.0,
         0.0,         1.0,         3.0,         2.0,
         1.0,         3.0,         3.0,         2.0,
         4.0,         2.0,         1.0,         1.0,
         0.0,         1.0,         1.0,         3.0,
         0.0,         0.0,         1.0,         2.0,
         4.0,         0.0,         4.0,         2.0,
         2.0,         2.0,         1.0,         0.0,
         2.0,         3.0,         1.0,         2.0,
         3.0,         1.0,         1.0,         5.0,
         0.0,         3.0,         2.0,         0.0,
         2.0,         2.0,         3.0,         0.0,
         1.0,         5.0,         0.0,         2.0,
         2.0,         3.0,         0.0,         2.0,
         2.0,         0.0,         1.0,         0.0,
         0.0,         3.0,         2.0,         1.0,
         2.0,         3.0,         3.0,         0.0,
         2.0,         0.0,         1.0,         1.0,
         0.0,         1.0,         4.0,         0.0,
         2.0,         0.0,         1.0,         0.0,
         2.0,         1.0,         3.0,         1.0,
         0.0,         4.0,         0.0,         1.0,
         1.0,         0.0,         1.0,         2.0,
         0.0,         1.0,         2.0,         2.0,
         1.0,         3.0,         1.0,         0.0,
         2.0,         1.0,         2.0,         2.0,
         0.0,         1.0,         0.0,         3.0,
         1.0,         1.0,         0.0,         0.0,
         0.0,         1.0,         0.0,         0.0,
         0.0,         0.0,         1.0,         0.0,
         0.0,         1.0,         2.0,         2.0,
         0.0,         0.0,         0.0,         1.0,
         0.0,         0.0,         0.0,         0.0,
         0.0,         0.0,         0.0,         0.0,
         0.0,         0.0,         0.0,         0.0,
         0.0,         0.0,         0.0,         1.0,
         0.0,         0.0,         1.0,         0.0,
         0.0,         0.0,         0.0,         0.0,
         0.0,         0.0,         0.0,         0.0,
         1.0,         0.0,         0.0,         1.0,
         0.0,         0.0,         1.0,         0.0,
         0.0,         0.0,         0.0,         0.0,
         1.0,         0.0,         0.0,         2.0,
         0.0,         0.0,         0.0,         0.0,
         0.0,         0.0,         0.0,         0.0,
         0.0,         0.0,         0.0,         0.0,
         0.0,         0.0,         0.0,         0.0,
         0.0,         0.0,         0.0,         0.0,
         0.0,         0.0,         0.0,         0.0,
         0.0,         0.0,         0.0,         0.0,
         0.0,         0.0,         0.0,         0.0,
         0.0,         0.0,         0.0,         0.0,
         0.0,         0.0,         0.0,         0.0,
         0.0,         0.0,         0.0,         0.0,
         0.0,         0.0,         0.0,         0.0,
         0.0,         0.0,         0.0,         0.0,
         0.0,         0.0,         0.0,         0.0,
         0.0,         0.0,         0.0,         0.0,
         0.0,         0.0,         0.0,         0.0,
         0.0,         0.0,         0.0,         0.0,
         0.0,         0.0,         0.0,         0.0,
         0.0,         0.0,         0.0,         0.0,
         0.0,         0.0,         0.0,         0.0,
         0.0,         0.0,         0.0,         0.0,
         0.0,         0.0,         0.0,         0.0,
         0.0,         0.0,         0.0,         0.0,
         0.0,         0.0,         0.0,         0.0,
         0.0,         0.0,         0.0,         0.0,
         0.0,         0.0,         0.0,         0.0,
         0.0,         0.0,         0.0,         0.0,
         0.0,         0.0,         0.0,         0.0,
         0.0,         0.0,         0.0,         0.0,
         0.0,         0.0,         0.0,         0.0,
         0.0,         0.0,         0.0,         0.0,
         0.0,         0.0,         0.0,         0.0,
         0.0,         0.0,         0.0,         0.0,
         0.0,         0.0,         0.0,         0.0,
         0.0,         0.0,         0.0,         0.0,
         0.0,         0.0,         0.0,         0.0,
         0.0,         0.0,         0.0,         0.0,
         0.0,         0.0,         0.0,         0.0,
         0.0,         0.0,         0.0,         0.0,
         0.0,         0.0,         0.0,         0.0,
         0.0,         0.0,         0.0,         0.0,
         0.0,         0.0,         0.0,         0.0,
         0.0,         0.0,         0.0,         0.0,
         0.0,         0.0,         0.0,         0.0,
         0.0,         0.0,         0.0,         0.0,
         0.0,         0.0,         0.0,         0.0,
         0.0,         0.0,         0.0,         0.0,
         0.0,         0.0,         0.0,         0.0,
         0.0,         0.0,         0.0,         0.0,
         0.0,         0.0,         0.0,         0.0,
         0.0,         0.0,         0.0,         0.0,
         0.0,         0.0,         0.0,         0.0,
         0.0,         0.0,         0.0,         0.0,
         0.0,         0.0,         0.0,         0.0,
         0.0,         0.0,         0.0,         0.0,
         0.0,         0.0,         0.0,         0.0,
         0.0,         0.0,         0.0,         0.0,
         0.0,         0.0,         0.0,         0.0,
         0.0,         0.0,         0.0,         0.0,
         0.0,         0.0,         0.0,         0.0,
         0.0,         0.0,         0.0,         0.0,
         0.0,         0.0,         0.0,         0.0,
         0.0,         0.0,         0.0,         0.0,
         0.0,         0.0,         0.0,         0.0,
         0.0,         0.0,         0.0,         0.0,
         0.0,         0.0,         0.0,         0.0,
         0.0,         0.0,         0.0,         0.0,
         0.0,         0.0,         0.0,         0.0,
         0.0,         0.0,         0.0,         0.0,
         0.0,         0.0,         0.0,         0.0,
         0.0,         0.0,         0.0,         0.0,
         0.0,         0.0,         0.0,         0.0,
         0.0,         0.0,         0.0,         0.0,
         0.0,         0.0,         0.0,         0.0,
         0.0,         0.0,         0.0,         0.0,
         0.0,         0.0,         0.0,         0.0,
         0.0,         0.0,         0.0,         0.0,
         0.0,         0.0,         0.0,         0.0,
         0.0,         0.0,         0.0,         0.0,
         0.0,         0.0,         0.0,         0.0,
         0.0,         0.0,         0.0,         0.0,
         0.0,         0.0,         0.0,         0.0,
         0.0,         0.0,         0.0,         0.0,
         0.0,         0.0,         0.0,         0.0,
         0.0,         0.0,         0.0,         0.0,
         0.0,         0.0,         0.0,         0.0,
         0.0,         0.0,         0.0,         0.0,
         0.0,         0.0,         0.0,         0.0,
         0.0,         0.0,         0.0,         0.0,
         0.0,         0.0,         0.0,         0.0,
         0.0,         0.0,         0.0,         0.0,
         0.0,         0.0,         0.0,         0.0,
         0.0,         0.0,         0.0,         0.0,
         0.0,         0.0,         0.0,         0.0,
         0.0,         0.0,         0.0,         0.0,
         0.0,         0.0,         0.0,         0.0,
         0.0,         0.0,         0.0,         0.0,
         0.0,         0.0,         0.0,         0.0,
         0.0,         0.0,         0.0,         0.0,
         0.0,         0.0,         0.0,         0.0,
         0.0,         0.0,         0.0,         0.0,
         0.0,         0.0,         0.0,         0.0,
         0.0,         0.0,         0.0,         0.0,
         0.0,         0.0,         0.0,         0.0,
         0.0,         0.0,         0.0,         0.0,
         0.0,         0.0,         0.0,         0.0,
         0.0,         0.0,         0.0,         0.0,
         0.0,         0.0,         0.0,         0.0,
         0.0,         0.0,         0.0,         0.0,
         0.0,         0.0,         0.0,         0.0,
         0.0,         0.0,         0.0,         0.0,
         0.0,         0.0,         0.0,         0.0,
         0.0,         0.0,         0.0,         0.0,
         0.0,         0.0,         0.0,         0.0,
         0.0,         0.0,         0.0,         0.0,
         0.0,         0.0,         0.0,         0.0,
         0.0,         0.0,         0.0,         0.0,
         0.0,         0.0,         0.0,         0.0,
         0.0,         0.0,         0.0,         0.0,
         0.0,         0.0,         0.0,         0.0,
         0.0,         0.0,         0.0,         0.0,
         0.0,         0.0,         0.0,         0.0,
         0.0,         0.0,         0.0,         0.0,
         0.0,         0.0,         0.0,         0.0,
         0.0,         0.0,         0.0,         0.0,
         0.0,         0.0,         0.0,         0.0,
#ENDOFDATA   :